     time/ms     Ampl/pA
     -1.3000      0.0006
     -1.2000     -0.0070
     -1.1000     -0.0039
     -1.0000      0.8841
     -0.9000      2.0972
     -0.8000      3.1409
     -0.7000      4.1068
     -0.6000      5.0315
     -0.5000      5.9378
     -0.4000      6.9159
     -0.3000      8.1916
     -0.2000     10.6604
     -0.1000     23.3267
      0.0000     28.4827
      0.1000     25.4035
      0.2000     20.0064
      0.3000     15.0672
      0.4000     10.5643
      0.5000      6.3895
      0.6000      3.3850
      0.7000      1.5113
      0.8000      0.3256
      0.9000     -0.4785
      1.0000     -1.0034
      1.1000     -1.3437
      1.2000     -1.5939
      1.3000     -1.7495
      1.4000     -1.8518
      1.5000     -1.9220
      1.6000     -1.9632
      1.7000     -1.9510
      1.8000     -1.9433
      1.9000     -1.9052
      2.0000     -1.8930
      2.1000     -1.8655
      2.2000     -1.8243
      2.3000     -1.7831
      2.4000     -1.7511
      2.5000     -1.7267
      2.6000     -1.6885
      2.7000     -1.6565
      2.8000     -1.6076
      2.9000     -1.5863
      3.0000     -1.5634
      3.1000     -1.5298
      3.2000     -1.4825
      3.3000     -1.4413
      3.4000     -1.4047
      3.5000     -1.3864
      3.6000     -1.3299
